Folder: driven_nickelate/driven_nickelate/characterization/xrd

Note: driven_nickelate/characterization/xrd/F21062_XRD.txt
;RAW4.00
[RawHeader]
Date=07/20/2023
EstimatedTotalTime=30148.4
FurtherDQLReading=0
HardwareIndicator=65519
MeasuredTotalTime=30148.4
MeasurementFlag=1
NumberOfMeasuredRanges=1
NumberOfRanges=1
Time=22:05:59

[VarInfo]
Type=USER
Flags=0
Value=Lab Manager

[VarInfo]
Type=SAMPLEID
Flags=0
Value=Commander Sample ID

[VarInfo]
Type=COMMENT
Flags=0
Value=

[VarInfo]
Type=UTF
Flags=0
Value=

[VarInfo]
Type=CREATOR
Flags=0
Value=BrmlToV4Converter

[VarInfo]
Type=CREATOR_VERSION
Flags=0
Value=6.4.1.0

[VarInfo]
Type=SUBSTRATE
Flags=0
Value=Si (no database)

[VarInfo]
Type=LAYER
Flags=0
Value=Si (no database)

[HardwareConfiguration]
AbsorptionFactor=9999
ActivateAbsorber=0
Alpha1=1.5406
Alpha2=1.54439
AlphaAverage=1.54184
AlphaRatio=0.5
Analyzer=0
Anode=Cu
AntiScatteringSlit=9999
BeamOpticsFlags=0
Beta=1.39222
BetaRelativeIntensity=0
DeactivateAbsorber=0
DetectorSlit=1
DivergenceSlit=1
GoniometerControl=0
GoniometerDiameter=910
GoniometerModel=512
GoniometerStage=4
Monochromator=0
NearSampleSlit=9999
PrimarySollerSlit=9999
SampleChanger=0
SecondSollerSlit=9999
SynchronousAxis=0
ThinFilmAttachment=9999
WaveUnit=A

[VisualEditDQL]
A=0.5431
AlignedHKL=+00/+00/+00
AlignmentIncidence=2
Alpha=90
B=0.5431
Beta=90
C=0.5431
CrystalSystem=0
Gamma=90
LatticeA=0.5431
LatticeAlpha=90
LatticeB=0.5431
LatticeBeta=90
LatticeC=0.5431
LatticeCrystalSystem=0
LatticeGamma=90
Lattice_mno=+00/+00/+01
Lattice_pqr=+01/+01/+00
MappingID1=0
MappingID2=0
MappingID3=0
MappingSet1=0
MappingSet2=0
MappingSet3=0
MappingStart1=0
MappingStart2=0
MappingStart3=0
MappingStop1=0
MappingStop2=0
MappingStop3=0
MeasurementType=5
ReciprocalSpaceUnit=0
mno=+00/+00/+01
pqr=+01/+01/+00

[DriveAlignment]
AlignFlag=2
Delta=1.5
DriveName=Theta
Offset=0
TheoreticalPosition=0

[DriveAlignment]
AlignFlag=2
Delta=1
DriveName=TwoTheta
Offset=0
TheoreticalPosition=0

[DriveAlignment]
AlignFlag=2
Delta=1
DriveName=Detector
Offset=0
TheoreticalPosition=0

[DriveAlignment]
AlignFlag=2
Delta=0.75
DriveName=Chi
Offset=0
TheoreticalPosition=0

[DriveAlignment]
AlignFlag=2
Delta=2
DriveName=Phi
Offset=0
TheoreticalPosition=0

[DriveAlignment]
AlignFlag=2
Delta=1
DriveName=BeamTranslation
Offset=0
TheoreticalPosition=0

[DriveAlignment]
AlignFlag=2
Delta=10
DriveName=X
Offset=0
TheoreticalPosition=0

[DriveAlignment]
AlignFlag=2
Delta=10
DriveName=Y
Offset=0
TheoreticalPosition=0

[DriveAlignment]
AlignFlag=2
Delta=1
DriveName=Z
Offset=0
TheoreticalPosition=0

[RangeHeader]
ActuallyUsedLambda=1.5406
AdditionalDetectorMask=4100
DataRecordLength=4
DelayTime=0
DisplayPlaneNumber=0
EstimatedScanTime=30148
ExtraParametersMask=0
GeneratorCurrent=1
GeneratorVoltage=50
Increment=0.02
Increment3=0
NumberOfCompletedData=1001
NumberOfCounts=1
NumberOfDetectors=0
NumberOfDrives=8
NumberOfEncoderDrives=0
NumberOfMeasuredData=1001
N

Note: README.md
# Terahertz-field driven nickelates

This repository contains the data and analysis scripts for an experimental work involving conductivity dynamics of NdNiO<sub>3</sub> thin films under terahertz field excitation. A free-space pulsed terahertz field is generated by optical rectification of a femtosecond laser pulse (1.5 eV photon energy, 100 fs pulse duration), and is locally amplified in the thin film through the deposition of gold terahertz resonators (electric split-ring resonators).

## Installation
The project is packaged with [`uv`](https://docs.astral.sh/uv/), so make sure to have that installed. 

Start by downloading the data from [doi.org/10.5281/zenodo.12752053](http://doi.org/10.5281/zenodo.12752053/), using 

```shell
uv run data-download
```

To work with the project, a virtual environment is typically used. This is created with `uv venv`. After you activate it (typically with `source .venv/bin/activate`), run `uv sync` to install dependencies.

File: NNO_fit_f=0.5.csv
40,3.68559
40.08,7.34849
40.16,11.6483
40.24,14.9606
40.32,15.9909
40.4,14.2984
40.48,10.5039
40.56,6.08637
40.64,2.8344
40.72,2.15302
40.8,4.49388
40.88,9.13724
40.96,14.4257
41.04,18.3767
41.12,19.4496
41.2,17.1722
41.28,12.3755
41.36,6.92735
41.44,3.0462
41.52,2.4455
41.6,5.63545
41.68,11.6631
41.76,18.4138
41.84,23.3828
41.92,24.6397
42,21.6174
42.08,15.4089
42.16,8.42983
42.24,3.5447
42.32,2.96913
42.4,7.36321
42.48,15.4811
42.56,24.5453
42.64,31.242
42.72,32.9875
42.8,28.9885
42.88,20.6712
42.96,11.2717
43.04,4.69302
43.12,4.02416
43.2,10.2741
43.28,21.8269
43.36,34.8809
43.44,44.7725
43.52,47.7364
43.6,42.4535
43.68,30.7701
43.76,17.2438
43.84,7.59737
43.92,6.58756
44,16.062
44.08,33.9725
44.16,54.8103
44.24,71.4284
44.32,77.6786
44.4,70.9291
44.48,53.4811
44.56,32.2283
44.64,16.5024
44.72,14.7334
44.8,31.0704
44.88,63.2504
44.96,102.68
45.04,136.978
45.12,154.322
45.2,148.212
45.28,120.883
45.36,83.928
45.44,55.4525
45.52,54.3359
45.6,93.2606
45.68,172.914
45.76,279.722
45.84,388.614
45.92,470.855
46,505.272
46.08,489.884
46.16,450.485
46.24,443.536
46.32,552.911
46.4,883.874
46.48,1564.41
46.56,2779.95
46.64,4923.59
46.72,9223.59
46.8,21338.8
46.88,98432.1
46.96,3.95111e+06
47.04,64977.8
47.12,21357.7
47.2,11095.3
47.28,6569.47
47.36,3929.09
47.44,2292.36
47.52,1436.68
47.6,1295.1
47.68,1799.25
47.76,2826.29
47.84,4192.34
47.92,5672.06
48,7032.33
48.08,8069.13
48.16,8639.09
48.24,8678.47
48.32,8206.77
48.4,7315.03
48.48,6142.54
48.56,4847.86
48.64,3580.33
48.72,2457.65
48.8,1553.01
48.88,892.713
48.96,462.78
49.04,221.632
49.12,114.816
49.2,88.3521
49.28,98.2
49.36,114.827
49.44,123.219
49.52,119.688
49.6,107.24
49.68,91.1654
49.76,75.9178
49.84,63.7223
49.92,54.6615
50,47.6334
50.08,41.474
50.16,35.7054
50.24,30.6794
50.32,27.1998
50.4,25.9136
50.48,26.8087
50.56,29.0587
50.64,31.2712
50.72,32.0142
50.8,30.3845
50.88,26.3757
50.96,20.8972
51.04,15.4398
51.12,11.5235
51.2,10.1403
51.28,11.4014
51.36,14.5118
51.44,18.0734
51.52,20.5942
51.6,21.0144
51.68,19.0612
51.76,15.3122
51.84,10.9586
51.92,7.363
52,5.57724
52.08,5.98954
52.16,8.21905
52.24,11.2823
52.32,13.9612
52.4,15.2342
52.48,14.6204
52.56,12.3183
52.64,9.10499
52.72,6.03972
52.8,4.08475
52.88,3.77835
52.96,5.06957
53.04,7.36394
53.12,9.75384
53.2,11.3453
53.28,11.5644
53.36,10.3387
53.44,8.09816
53.52,5.60363
53.6,3.66999
53.68,2.88419
53.76,3.41462
53.84,4.97286
53.92,6.93349
54,8.56358
54.08,9.27821
54.16,8.83365
54.24,7.39503
54.32,5.46144
54.4,3.6804
54.48,2.62021
54.56,2.5795
54.64,3.49727
54.72,4.98936
54.8,6.49339
54.88,7.46786
54.96,7.57555
55.04,6.78941
55.12,5.38854
55.2,3.85034
55.28,2.68001
55.36,2.2378
55.44,2.62281
55.52,3.65005
55.6,4.92481
55.68,5.9849
55.76,6.45987
55.84,6.19266
55.92,5.28416
56,4.04886
56.08,2.90007
56.16,2.20645
56.24,2.16929
56.32,2.76108
56.4,3.74361
56.48,4.75628
56.56,5.44225
56.64,5.56834
56.72,5.09887
56.8,4.20017
56.88,3.17718
56.96,2.36592
57.04,2.01948
57.12,2.22621
57.2,2.88607
57.28,3.75093
57.36,4.51303
57.44,4.91006
57.52,4.8113
57.6,4.25661
57.68,3.43709
57.76,2.62601
57.84,2.08477
57.92,1.97608
58,2.31322
58.08,2.96068
58.16,3.68434
58.24,4.23269
58.32,4.42099
58.4,4.19041
58.48,3.62333
58.56,2.91132
58.64,2.288
58.72,1.95027
58.8,1.99429
58.88,2.38695
58.96,2.98101
59.04,3.5674
59.12,3.94628
59.2,3.9927
59.28,3.69536
59.36,3.15682
59.44,2.55607
59.52,2.08724
59.6,1.8953
59.68,2.02988
59.76,2.43196
59.84,2.95655
59.92,3.42287
60,3.67474

File: NNO_fit_f=1.csv
40,5.93603
40.08,5.19449
40.16,4.7923
40.24,4.92413
40.32,5.6115
40.4,6.68482
40.48,7.83064
40.56,8.69155
40.64,8.98764
40.72,8.61873
40.8,7.71099
40.88,6.58806
40.96,5.67201
41.04,5.34343
41.12,5.80644
41.2,7.00557
41.28,8.62659
41.36,10.1872
41.44,11.1922
41.52,11.3048
41.6,10.4759
41.68,8.98258
41.76,7.35806
41.84,6.22628
41.92,6.09264
42,7.15885
42.08,9.2279
42.16,11.7392
42.24,13.9328
42.32,15.096
42.4,14.8162
42.48,13.151
42.56,10.6513
42.64,8.21612
42.72,6.81226
42.8,7.14538
42.88,9.38904
42.96,13.0719
43.04,17.1768
43.12,20.4396
43.2,21.7632
43.28,20.619
43.36,17.2928
43.44,12.8772
43.52,8.98273
43.6,7.23742
43.68,8.72206
43.76,13.5283
43.84,20.6061
43.92,27.9874
44,33.3568
44.08,34.8159
44.16,31.6051
44.24,24.5285
44.32,15.8974
44.4,8.94466
44.48,6.83448
44.56,11.5499
44.64,23.0178
44.72,38.8088
44.8,54.6026
44.88,65.3874
44.96,67.1036
45.04,58.2551
45.12,40.9331
45.2,20.8043
45.28,5.87392
45.36,4.20446
45.44,21.1477
45.52,56.9143
45.6,105.362
45.68,154.675
45.76,190.158
45.84,198.762
45.92,174.356
46,122.346
46.08,62.165
46.16,26.5135
46.24,57.0617
46.32,197.549
46.4,486.924
46.48,957.933
46.56,1653.5
46.64,2699.22
46.72,4605.13
46.8,10022.5
46.88,47493.2
46.96,2.14128e+06
47.04,40074.7
47.12,14179.6
47.2,7425.89
47.28,4174.4
47.36,2234.04
47.44,1139.62
47.52,808.391
47.6,1233.22
47.68,2379.1
47.76,4143.63
47.84,6349.18
47.92,8756.47
48,11092.7
48.08,13088.2
48.16,14513.1
48.24,15210.1
48.32,15113.7
48.4,14256.7
48.48,12760.3
48.56,10812
48.64,8634.63
48.72,6452
48.8,4458.39
48.88,2795.15
48.96,1538.59
49.04,699.527
49.12,233.415
49.2,57.7265
49.28,72.6544
49.36,180.881
49.44,303.029
49.52,386.681
49.6,408.45
49.68,370.014
49.76,290.105
49.84,194.918
49.92,109.292
50,50.4186
50.08,24.9549
50.16,29.4758
50.24,53.4457
50.32,83.4497
50.4,107.358
50.48,117.357
50.56,111.26
50.64,92.0679
50.72,66.1877
50.8,41.0259
50.88,22.7077
50.96,14.5241
51.04,16.4206
51.12,25.5081
51.2,37.3013
51.28,47.2321
51.36,51.973
51.44,50.2234
51.52,42.8095
51.6,32.1596
51.68,21.3869
51.76,13.2895
51.84,9.56791
51.92,10.4554
52,14.8198
52.08,20.6516
52.16,25.7525
52.24,28.4021
52.32,27.8113
52.4,24.254
52.48,18.8733
52.56,13.252
52.64,8.89897
52.72,6.80801
52.8,7.21341
52.88,9.59276
52.96,12.8931
53.04,15.8925
53.12,17.5778
53.2,17.4264
53.28,15.5173
53.36,12.4542
53.44,9.13986
53.52,6.48197
53.6,5.1218
53.68,5.2652
53.76,6.65663
53.84,8.69219
53.92,10.627
54,11.8078
54.08,11.8606
54.16,10.7801
54.24,8.90328
54.32,6.78356
54.4,5.00945
54.48,4.0266
54.56,4.01518
54.64,4.85493
54.72,6.18196
54.8,7.51394
54.88,8.40178
54.96,8.56101
55.04,7.9453
55.12,6.74439
55.2,5.31197
55.28,4.04976
55.36,3.28477
55.44,3.17673
55.52,3.68104
55.6,4.57472
55.68,5.53357
55.76,6.2347
55.84,6.45227
55.92,6.11875
56,5.33549
56.08,4.33273
56.16,3.39373
56.24,2.76765
56.32,2.59759
56.4,2.88409
56.48,3.49297
56.56,4.20249
56.64,4.77379
56.72,5.02249
56.8,4.87029
56.88,4.3624
56.96,3.6476
57.04,2.92881
57.12,2.40028
57.2,2.19066
57.28,2.32841
57.36,2.73845
57.44,3.26952
57.52,3.74257
57.6,4.00485
57.68,3.97359
57.76,3.65694
57.84,3.1471
57.92,2.58921
58,2.13608
58.08,1.903
58.16,1.93557
58.24,2.19962
58.32,2.59488
58.4,2.98742
58.48,3.25045
58.56,3.30104
58.64,3.12249
58.72,2.7662
58.8,2.33362
58.88,1.94437
58.96,1.70055
59.04,1.65764
59.12,1.81032
59.2,2.09668
59.28,2.4186
59.36,2.67189
59.44,2.77685
59.52,2.70042
59.6,2.46389
59.68,2.1344
59.76,1.80362
59.84,1.5601
59.92,1.46374
60,1.52955